File: Thesis/XRD/Ti-6246.CSV
No.,Pos. [°2Th.],Iobs [cts],Icalc [cts],Iback [cts],CT [s],ESD,D spacings
1,30.0097,156.9955, , ,224.7900, ,2.97527
4,30.1087,166.1275, , ,224.7900, ,2.96571
7,30.2077,152.8622, , ,224.7900, ,2.95621
10,30.3067,151.9589, , ,224.7900, ,2.94678
13,30.4057,149.3037, , ,224.7900, ,2.93741
16,30.5047,147.4314, , ,224.7900, ,2.92810
19,30.6037,146.4012, , ,224.7900, ,2.91886
22,30.7027,136.1419, , ,224.7900, ,2.90967
25,30.8017,146.6969, , ,224.7900, ,2.90054
28,30.9007,137.0542, , ,224.7900, ,2.89148
31,30.9997,146.3796, , ,224.7900, ,2.88247
34,31.0987,133.0069, , ,224.7900, ,2.87352
37,31.1977,141.5647, , ,224.7900, ,2.86462
40,31.2967,152.9864, , ,224.7900, ,2.85579
43,31.3957,154.3454, , ,224.7900, ,2.84701
46,31.4947,143.8802, , ,224.7900, ,2.83828
49,31.5937,128.2911, , ,224.7900, ,2.82962
52,31.6927,136.3555, , ,224.7900, ,2.82100
55,31.7917,141.8934, , ,224.7900, ,2.81244
58,31.8907,146.1982, , ,224.7900, ,2.80394
61,31.9897,119.6561, , ,224.7900, ,2.79549
64,32.0887,150.6196, , ,224.7900, ,2.78709
67,32.1877,170.5319, , ,224.7900, ,2.77874
70,32.2867,140.6688, , ,224.7900, ,2.77045
73,32.3857,130.9950, , ,224.7900, ,2.76220
76,32.4847,129.9411, , ,224.7900, ,2.75401
79,32.5837,159.8007, , ,224.7900, ,2.74587
82,32.6827,138.8397, , ,224.7900, ,2.73778
85,32.7817,130.8689, , ,224.7900, ,2.72973
88,32.8807,114.3065, , ,224.7900, ,2.72174
91,32.9797,123.4021, , ,224.7900, ,2.71380
94,33.0787,127.5348, , ,224.7900, ,2.70590
97,33.1777,129.8566, , ,224.7900, ,2.69805
100,33.2767,138.5176, , ,224.7900, ,2.69025
103,33.3757,125.8492, , ,224.7900, ,2.68250
106,33.4747,132.0810, , ,224.7900, ,2.67479
109,33.5737,114.2567, , ,224.7900, ,2.66713
112,33.6727,120.4956, , ,224.7900, ,2.65951
115,33.7717,116.8314, , ,224.7900, ,2.65194
118,33.8707,115.4728, , ,224.7900, ,2.64442
121,33.9697,123.0073, , ,224.7900, ,2.63694
124,34.0687,124.6683, , ,224.7900, ,2.62950
127,34.1677,112.5202, , ,224.7900, ,2.62211
130,34.2667,123.1474, , ,224.7900, ,2.61476
133,34.3657,118.2796, , ,224.7900, ,2.60745
136,34.4647,137.1282, , ,224.7900, ,2.60019
139,34.5637,140.9282, , ,224.7900, ,2.59297
142,34.6627,138.4874, , ,224.7900, ,2.58579
145,34.7617,127.7882, , ,224.7900, ,2.57865
148,34.8607,143.3004, , ,224.7900, ,2.57155
151,34.9597,184.5752, , ,224.7900, ,2.56450
154,35.0587,203.2093, , ,224.7900, ,2.55748
157,35.1577,287.9563, , ,224.7900, ,2.55051
160,35.2567,324.9519, , ,224.7900, ,2.54357
163,35.3557,360.1544, , ,224.7900, ,2.53668
166,35.4547,308.7814, , ,224.7900, ,2.52982
169,35.5537,263.8616, , ,224.7900, ,2.52300
172,35.6527,199.6767, , ,224.7900, ,2.51622
175,35.7517,157.3856, , ,224.7900, ,2.50948
178,35.8507,159.5918, , ,224.7900, ,2.50278
181,35.9497,147.4721, , ,224.7900, ,2.49611
184,36.0487,140.2624, , ,224.7900, ,2.48948
187,36.1477,153.1288, , ,224.7900, ,2.48289
190,36.2467,150.9387, , ,224.7900, ,2.47634
193,36.3457,135.5548, , ,224.7900, ,2.46982
196,36.4447,139.9228, , ,224.7900, ,2.46334
199,36.5437,139.0845, , ,224.7900, ,2.45689
202,36.6427,123.2055, , ,224.7900, ,2.45048
205,36.7417,140.4293, , ,224.7900, ,2.44410
208,36.8407,139.6499, , ,224.7900, ,2.43776
211,36.9397,137.8402, , ,224.7900, ,2.43146
214,37.0387,152.2331, , ,224.7900, ,2.42518
217,37.1377,118.8780, , ,224.7900, ,2.41895
220,37.2367,128.2242, , ,224.7900, ,2.41274
223,37.3357,145.4119, , ,224.7900, ,2.40657
226,37.4347,134.6514, , ,224.7900, ,2.40043
229,37.5337,157.2302, , ,224.7900, ,2.39433
232,37.6327,154.8057, , ,224.7900, ,2.38826
235,37.7317,169.1152, , ,224.7900, ,2.38222
238,37.8307,178.9418, , ,224.7900, ,2.37621
241,37.9297,236.5794, , ,224.7900, ,2.37024
244,38.0287,248.2024, , ,224.7900, ,2.36429
247,38.1277,273.5151, , ,224.7900, ,2.35838
250,38.2267,386.5073, , ,224.7900, ,2.35250
253,38.3257,523.3249, , ,224.7900, ,2.34665
256,38.4247,688.4170, , ,224.7900, ,2.34083
259,38.5237,751.4734, , ,224.7900, ,2.33505
262,38.6227,712.8364, , ,224.7900, ,2.32929
265,38.7217,644.7785, , ,224.7900, ,2.32356
268,38.8207,552.2740, , ,224.7900, ,2.31786
271,38.9197,537.8365, , ,224.7900, ,2.31219
274,39.0187,568.0311, , ,224.7900, ,2.30656
277,39.1177,610.8680, , ,224.7900, ,2.30095
280,39.2167,605.8407, , ,224.7900, ,2.29536
283,39.3157,540.0740, , ,224.7900, ,2.28981
286,39.4147,504.1477, , ,224.7900, ,2.28429
289,39.5137,425.4084, , ,224.7900, ,2.27879
292,39.6127,376.5480, , ,224.7900, ,2.27333
295,39.7117,360.6053, , ,224.7900, ,2.26789
298,39.8107,392.9593, , ,224.7900, ,2.26247
301,39.9097,460.5757, , ,224.7900, ,2.25709
304,40.0087,573.6495, , ,224.7900, ,2.25173
307,40.1077,819.7480, , ,224.7900, ,2.24640
310,40.2067,1211.87, , ,224.7900, ,2.24110
313,40.3057,1533.92, , ,224.7900, ,2.23582
316,40.4047,1701.98, , ,224.7900, ,2.23057
319,40.5037,1396.82, , ,224.7900, ,2.22535
322,40.6027,950.1339, , ,224.7900, ,2.22015
325,40.7017,568.5279, , ,224.7900, ,2.21498
328,40.8007,419.3985, , ,224.7900, ,2.20983
331,40.8997,302.1446, , ,224.7900, ,2.20471
334,40.9987,249.8544, , ,224.7900, ,2.19962
337,41.0977,211.5277, , ,224.7900, ,2.19455
340,41.1967,172.4393, , ,224.7900, ,2.18950
343,41.2957,131.7896, , ,224.7900, ,2.18448
346,41.3947,131.6237, , ,224.7900, ,2.17948
349,41.4937,125.9881, , ,224.7900, ,2.17451
352,41.5927,126.1305, , ,224.7900, ,2.16957
355,41.6917,99.5861, , ,224.7900, ,2.16464
358,41.7907,114.8210, , ,224.7900, ,2.15974
361,41.8897,106.3525, , ,224.7900, ,2.15487
364,41.9887,83.4603, , ,224.7900, ,2.15002
367,42.0877,104.5832, , ,224.7900, ,2.14519
370,42.1867,99.2950, , ,224.7900, ,2.14038
373,42.2857,83.1932, , ,224.7900, ,2.13560
376,42.3847,88.8490, , ,224.7900, ,2.13084
379,42.4837,85.7750, , ,224.7900, ,2.12610
382,42.5827,92.2618, , ,224.7900, ,2.12139
385,42.6817,74.3309, , ,224.7900, ,2.11670
388,42.7807,85.5325, , ,224.7900, ,2.11203
391,42.8797,86.9258, , ,224.7900, ,2.10738
394,42.9787,72.8779, , ,224.7900, ,2.10276
397,43.0777,82.9538, , ,224.7900, ,2.09815
400,43.1767,65.6602, , ,224.7900, ,2.09357
403,43.2757,68.8263, , ,224.7900, ,2.08901
406,43.3747,74.7557, , ,224.7900, ,2.08447
409,43.4737,86.3729, , ,224.7900, ,2.07995
412,43.5727,80.4077, , ,224.7900, ,2.07546
415,43.6717,69.7702, , ,224.7900, ,2.07098
418,43.7707,70.3448, , ,224.7900, ,2.06653
421,43.8697,77.9957, , ,224.7900, ,2.06209
424,43.9687,70.9153, , ,224.7900, ,2.05768
427,44.0677,62.5260, , ,224.7900, ,2.05329
430,44.1667,62.3095, , ,224.7900, ,2.04891
433,44.2657,73.8399, , ,224.7900, ,2.04456
436,44.3647,74.5136, , ,224.7900, ,2.04023
439,44.4637,64.8322, , ,224.7900, ,2.03591
442,44.5627,63.8799, , ,224.7900, ,2.03162
445,44.6617,73.2591, , ,224.7900, ,2.02735
448,44.7607,66.8804, , ,224.7900, ,2.02309
451,44.8597,55.9362, , ,224.7900, ,2.01886
454,44.9587,75.4434, , ,224.7900, ,2.01464
457,45.0577,63.3521, , ,224.7900, ,2.01044
460,45.1567,58.7713, , ,224.7900, ,2.00627
463,45.2557,65.7296, , ,224.7900, ,2.00211
466,45.3547,71.9335, , ,224.7900, ,1.99797
469,45.4537,68.9206, , ,224.7900, ,1.99385
472,45.5527,62.1330, , ,224.7900, ,1.98974
475,45.6517,51.0647, , ,224.7900, ,1.98566
478,45.7507,68.7533, , ,224.7900, ,1.98159
481,45.8497,68.3206, , ,224.7900, ,1.97754
484,45.9487,61.8463, , ,224.7900, ,1.97351
487,46.0477,63.0222, , ,224.7900, ,1.96950
490,46.1467,60.7249, , ,224.7900, ,1.96550
493,46.2457,61.4039, , ,224.7900, ,1.96153
496,46.3447,58.0917, , ,224.7900, ,1.95757
499,46.4437,64.9329, , ,224.7900, ,1.95362
502,46.5427,53.9895, , ,224.7900, ,1.94970
505,46.6417,52.8296, , ,224.7900, ,1.94579
508,46.7407,65.1845, , ,224.7900, ,1.94190
511,46.8397,54.3115, , ,224.7900, ,1.93803
514,46.9387,56.9454, , ,224.7900, ,1.93417
517,47.0377,64.8559, , ,224.7900, ,1.93033
520,47.1367,57.0034, , ,224.7900, ,1.92650
523,47.2357,70.6027, , ,224.7900, ,1.92270
526,47.3347,62.0037, , ,224.7900, ,1.91891
529,47.4337,57.2710, , ,224.7900, ,1.91513
532,47.5327,63.8558, , ,224.7900, ,1.91137
535,47.6317,51.9912, , ,224.7900, ,1.90763
538,47.7307,68.9861, , ,224.7900, ,1.90391
541,47.8297,64.7916, , ,224.7900, ,1.90020
544,47.9287,60.9431, , ,224.7900, ,1.89650
547,48.0277,64.5878, , ,224.7900, ,1.89282
550,48.1267,65.4027, , ,224.7900, ,1.88916
553,48.2257,64.4553, , ,224.7900, ,1.88551
556,48.3247,54.1845, , ,224.7900, ,1.88188
559,48.4237,66.0507, , ,224.7900, ,1.87827
562,48.5227,55.1816, , ,224.7900, ,1.87467
565,48.6217,49.3514, , ,224.7900, ,1.87108
568,48.7207,67.3145, , ,224.7900, ,1.86751
571,48.8197,56.1788, , ,224.7900, ,1.86395
574,48.9187,56.4371, , ,224.7900, ,1.86041
577,49.0177,54.5409, , ,224.7900, ,1.85689
580,49.1167,48.0378, , ,224.7900, ,1.85337
583,49.2157,56.7831, , ,224.7900, ,1.84988
586,49.3147,62.7451, , ,224.7900, ,1.84640
589,49.4137,65.6675, , ,224.7900, ,1.84293
592,49.5127,59.6629, , ,224.7900, ,1.83947
595,49.6117,58.5635, , ,224.7900, ,1.83603
598,49.7107,54.0252, , ,224.7900, ,1.83261
601,49.8097,50.2165, , ,224.7900, ,1.82920
604,49.9087,54.7840, , ,224.7900, ,1.82580
607,50.0077,57.0132, , ,224.7900, ,1.82242
610,50.1067,65.0038, , ,224.7900, ,1.81905
613,50.2057,60.1001, , ,224.7900, ,1.81570
616,50.3047,56.0539, , ,224.7900, ,1.81235
619,50.4037,60.8809, , ,224.7900, ,1.80903
622,50.5027,62.7420, , ,224.7900, ,1.80571
625,50.6017,64.1140, , ,224.7900, ,1.80241
628,50.7007,71.1170, , ,224.7900, ,1.79912
631,50.7997,57.8265, , ,224.7900, ,1.79585
634,50.8987,60.0243, , ,224.7900, ,1.79259
637,50.9977,61.7538, , ,224.7900, ,1.78934
640,51.0967,57.3759, , ,224.7900, ,1.78611
643,51.1957,72.0188, , ,224.7900, ,1.78288
646,51.2947,57.3174, , ,224.7900, ,1.77968
649,51.3937,54.3421, , ,224.7900, ,1.77648
652,51.4927,51.7670, , ,224.7900, ,1.77330
655,51.5917,74.6640, , ,224.7900, ,1.77013
658,51.6907,56.5866, , ,224.7900, ,1.76697
661,51.7897,57.9399, , ,224.7900, ,1.76382
664,51.8887,57.7242, , ,224.7900, ,1.76069
667,51.9877,60.8060, , ,224.7900, ,1.75757
670,52.0867,55.3700, , ,224.7900, ,1.75446
673,52.1857,71.9514, , ,224.7900, ,1.75137
676,52.2847,78.1940, , ,224.7900, ,1.74828
679,52.3837,84.2813, , ,224.7900, ,1.74521
682,52.4827,86.9888, , ,224.7900, ,1.74215
685,52.5817,95.5213, , ,224.7900, ,1.73911
688,52.6807,118.8037, , ,224.7900, ,1.73607
691,52.7797,183.7131, , ,224.7900, ,1.73305
694,52.8787,247.0319, , ,224.7900, ,1.73004
697,52.9777,345.8379, , ,224.7900, ,1.72704
700,53.0767,451.1897, , ,224.7900, ,1.72405
703,53.1757,527.5899, , ,224.7900, ,1.72107
706,53.2747,457.6635, , ,224.7900, ,1.71811
709,53.3737,353.1780, , ,224.7900, ,1.71515
712,53.4727,257.2518, , ,224.7900, ,1.71221
715,53.5717,143.9223, , ,224.7900, ,1.70928
718,53.6707,123.6200, , ,224.7900, ,1.70636
721,53.7697,110.4818, , ,224.7900, ,1.70345
724,53.8687,94.8825, , ,224.7900, ,1.70055
727,53.9677,87.3517, , ,224.7900, ,1.69767
730,54.0667,84.9239, , ,224.7900, ,1.69479
733,54.1657,78.0122, , ,224.7900, ,1.69193
736,54.2647,71.0751, , ,224.7900, ,1.68908
739,54.3637,61.3139, , ,224.7900, ,1.68623
742,54.4627,67.8360, , ,224.7900, ,1.68340
745,54.5617,72.1805, , ,224.7900, ,1.68058
748,54.6607,72.8836, , ,224.7900, ,1.67777
751,54.7597,71.6688, , ,224.7900, ,1.67497
754,54.8587,70.5550, , ,224.7900, ,1.67218
757,54.9577,58.9856, , ,224.7900, ,1.66941
760,55.0567,73.0186, , ,224.7900, ,1.66664
763,55.1557,77.3980, , ,224.7900, ,1.66388
766,55.2547,78.0328, , ,224.7900, ,1.66113
769,55.3537,79.7979, , ,224.7900, ,1.65840
772,55.4527,83.5330, , ,224.7900, ,1.65567
775,55.5517,81.6480, , ,224.7900, ,1.65295
778,55.6507,120.1223, , ,224.7900, ,1.65025
781,55.7497,146.6019, , ,224.7900, ,1.64755
784,55.8487,145.1210, , ,224.7900, ,1.64486
787,55.9477,163.5174, , ,224.7900, ,1.64219
790,56.0467,227.5951, , ,224.7900, ,1.63952
793,56.1457,305.3994, , ,224.7900, ,1.63687
796,56.2447,303.8020, , ,224.7900, ,1.63422
799,56.3437,276.9326, , ,224.7900, ,1.63158
802,56.4427,310.5123, , ,224.7900, ,1.62896
805,56.5417,286.6417, , ,224.7900, ,1.62634
808,56.6407,291.5892, , ,224.7900, ,1.62373
811,56.7397,266.6669, , ,224.7900, ,1.62113
814,56.8387,203.2974, , ,224.7900, ,1.61854
817,56.9377,155.0486, , ,224.7900, ,1.61596
820,57.0367,127.6718, , ,224.7900, ,1.61339
823,57.1357,92.5491, , ,224.7900, ,1.61083
826,57.2347,90.1166, , ,224.7900, ,1.60828
829,57.3337,80.7474, , ,224.7900, ,1.60574
832,57.4327,60.3990, , ,224.7900, ,1.60321
835,57.5317,68.6547, , ,224.7900, ,1.60068
838,57.6307,64.2015, , ,224.7900, ,1.59817
841,57.7297,63.2962, , ,224.7900, ,1.59566
844,57.8287,52.1909, , ,224.7900, ,1.59317
847,57.9277,61.3083, , ,224.7900, ,1.59068
850,58.0267,43.8694, , ,224.7900, ,1.58820
853,58.1257,54.5395, , ,224.7900, ,1.58573
856,58.2247,61.1409, , ,224.7900, ,1.58327
859,58.3237,54.1623, , ,224.7900, ,1.58082
862,58.4227,60.6234, , ,224.7900, ,1.57838
865,58.5217,39.0765, , ,224.7900, ,1.57594
868,58.6207,51.7288, , ,224.7900, ,1.57352
871,58.7197,44.0084, , ,224.7900, ,1.57110
874,58.8187,49.2540, , ,224.7900, ,1.56869
877,58.9177,45.5998, , ,224.7900, ,1.56629
880,59.0167,57.4539, , ,224.7900, ,1.56390
883,59.1157,43.2016, , ,224.7900, ,1.56152
886,59.2147,52.7994, , ,224.7900, ,1.55914
889,59.3137,50.4128, , ,224.7900, ,1.55677
892,59.4127,46.6457, , ,224.7900, ,1.55442
895,59.5117,46.3215, , ,224.7900, ,1.55207
898,59.6107,55.7855, , ,224.7900, ,1.54973
901,59.7097,53.3508, , ,224.7900, ,1.54739
904,59.8087,45.0741, , ,224.7900, ,1.54507
907,59.9077,53.1816, , ,224.7900, ,1.54275
910,60.0067,43.4895, , ,224.7900, ,1.54044
913,60.1057,54.6521, , ,224.7900, ,1.53814
916,60.2047,52.3461, , ,224.7900, ,1.53585
919,60.3037,53.6088, , ,224.7900, ,1.53356
922,60.4027,56.6404, , ,224.7900, ,1.53129
925,60.5017,47.5875, , ,224.7900, ,1.52902
928,60.6007,45.9975, , ,224.7900, ,1.52676
931,60.6997,53.5177, , ,224.7900, ,1.52450
934,60.7987,53.2018, , ,224.7900, ,1.52226
937,60.8977,46.6645, , ,224.7900, ,1.52002
940,60.9967,55.0032, , ,224.7900, ,1.51779
943,61.0957,48.0883, , ,224.7900, ,1.51557
946,61.1947,55.1543, , ,224.7900, ,1.51335
949,61.2937,50.8765, , ,224.7900, ,1.51115
952,61.3927,39.4763, , ,224.7900, ,1.50895
955,61.4917,50.1524, , ,224.7900, ,1.50675
958,61.5907,52.4903, , ,224.7900, ,1.50457
961,61.6897,47.5053, , ,224.7900, ,1.50239
964,61.7887,53.7418, , ,224.7900, ,1.50022
967,61.8877,52.4220, , ,224.7900, ,1.49806
970,61.9867,54.2536, , ,224.7900, ,1.49590
973,62.0857,60.8434, , ,224.7900, ,1.49376
976,62.1847,61.0249, , ,224.7900, ,1.49162
979,62.2837,64.3494, , ,224.7900, ,1.48948
982,62.3827,49.8071, , ,224.7900, ,1.48736
985,62.4817,69.3963, , ,224.7900, ,1.48524
988,62.5807,72.5264, , ,224.7900, ,1.48313
991,62.6797,90.7959, , ,224.7900, ,1.48102
994,62.7787,118.8389, , ,224.7900, ,1.47892
997,62.8777,158.6243, , ,224.7900, ,1.47683
1000,62.9767,203.1362, , ,224.7900, ,1.47475
1003,63.0757,309.6426, , ,224.7900, ,1.47267
1006,63.1747,391.0887, , ,224.7900, ,1.47060
1009,63.2737,472.9032, , ,224.7900, ,1.46854
1012,63.3727,443.4705, , ,224.7900, ,1.46648
1015,63.4717,432.5650, , ,224.7900, ,1.46444
1018,63.5707,302.6956, , ,224.7900, ,1.46239
1021,63.6697,230.5021, , ,224.7900, ,1.46036
1024,63.7687,145.6069, , ,224.7900, ,1.45833
1027,63.8677,105.6755, , ,224.7900, ,1.45631
1030,63.9667,61.0500, , ,224.7900, ,1.45429
1033,64.0657,59.9967, , ,224.7900, ,1.45228
1036,64.1647,52.7059, , ,224.7900, ,1.45028
1039,64.2637,62.2056, , ,224.7900, ,1.44829
1042,64.3627,53.2818, , ,224.7900, ,1.44630
1045,64.4617,53.1646, , ,224.7900, ,1.44431
1048,64.5607,56.4828, , ,224.7900, ,1.44234
1051,64.6597,57.6853, , ,224.7900, ,1.44037
1054,64.7587,50.9972, , ,224.7900, ,1.43841
1057,64.8577,46.7596, , ,224.7900, ,1.43645
1060,64.9567,37.1627, , ,224.7900, ,1.43450
1063,65.0557,49.1451, , ,224.7900, ,1.43256
1066,65.1547,50.3487, , ,224.7900, ,1.43062
1069,65.2537,44.4901, , ,224.7900, ,1.42869
1072,65.3527,50.1378, , ,224.7900, ,1.42676
1075,65.4517,49.4641, , ,224.7900, ,1.42484
1078,65.5507,49.9189, , ,224.7900, ,1.42293
1081,65.6497,54.2294, , ,224.7900, ,1.42103
1084,65.7487,39.7643, , ,224.7900, ,1.41912
1087,65.8477,55.0790, , ,224.7900, ,1.41723
1090,65.9467,52.2180, , ,224.7900, ,1.41534
1093,66.0457,56.2460, , ,224.7900, ,1.41346
1096,66.1447,37.2284, , ,224.7900, ,1.41159
1099,66.2437,56.3335, , ,224.7900, ,1.40972
1102,66.3427,44.5743, , ,224.7900, ,1.40785
1105,66.4417,51.1686, , ,224.7900, ,1.40599
1108,66.5407,59.8569, , ,224.7900, ,1.40414
1111,66.6397,66.4025, , ,224.7900, ,1.40230
1114,66.7387,47.9974, , ,224.7900, ,1.40046
1117,66.8377,42.3453, , ,224.7900, ,1.39862
1120,66.9367,56.3676, , ,224.7900, ,1.39679
1123,67.0357,54.8123, , ,224.7900, ,1.39497
1126,67.1347,50.3296, , ,224.7900, ,1.39316
1129,67.2337,60.0905, , ,224.7900, ,1.39134
1132,67.3327,40.3054, , ,224.7900, ,1.38954
1135,67.4317,52.9788, , ,224.7900, ,1.38774
1138,67.5307,47.3656, , ,224.7900, ,1.38595
1141,67.6297,57.4222, , ,224.7900, ,1.38416
1144,67.7287,50.7940, , ,224.7900, ,1.38238
1147,67.8277,49.8541, , ,224.7900, ,1.38060
1150,67.9267,44.3160, , ,224.7900, ,1.37883
1153,68.0257,49.9336, , ,224.7900, ,1.37706
1156,68.1247,50.5896, , ,224.7900, ,1.37530
1159,68.2237,58.2703, , ,224.7900, ,1.37355
1162,68.3227,47.1883, , ,224.7900, ,1.37180
1165,68.4217,51.6978, , ,224.7900, ,1.37005
1168,68.5207,47.2151, , ,224.7900, ,1.36832
1171,68.6197,49.5802, , ,224.7900, ,1.36658
1174,68.7187,56.3272, , ,224.7900, ,1.36486
1177,68.8177,53.2511, , ,224.7900, ,1.36313
1180,68.9167,62.1860, , ,224.7900, ,1.36142
1183,69.0157,56.1675, , ,224.7900, ,1.35970
1186,69.1147,58.2189, , ,224.7900, ,1.35800
1189,69.2137,53.9211, , ,224.7900, ,1.35630
1192,69.3127,67.5649, , ,224.7900, ,1.35460
1195,69.4117,67.5720, , ,224.7900, ,1.35291
1198,69.5107,80.5191, , ,224.7900, ,1.35123
1201,69.6097,75.0942, , ,224.7900, ,1.34955
1204,69.7087,88.7630, , ,224.7900, ,1.34787
1207,69.8077,82.9686, , ,224.7900, ,1.34620
1210,69.9067,103.9943, , ,224.7900, ,1.34454
1213,70.0057,119.0592, , ,224.7900, ,1.34288
1216,70.1047,143.7457, , ,224.7900, ,1.34123
1219,70.2037,162.6676, , ,224.7900, ,1.33958
1222,70.3027,230.6787, , ,224.7900, ,1.33793
1225,70.4017,274.4280, , ,224.7900, ,1.33629
1228,70.5007,379.8832, , ,224.7900, ,1.33466
1231,70.5997,449.5226, , ,224.7900, ,1.33303
1234,70.6987,526.6858, , ,224.7900, ,1.33141
1237,70.7977,537.0592, , ,224.7900, ,1.32979
1240,70.8967,500.6700, , ,224.7900, ,1.32817
1243,70.9957,408.5741, , ,224.7900, ,1.32656
1246,71.0947,316.3889, , ,224.7900, ,1.32496
1249,71.1937,254.6967, , ,224.7900, ,1.32336
1252,71.2927,193.4557, , ,224.7900, ,1.32176
1255,71.3917,173.4723, , ,224.7900, ,1.32018
1258,71.4907,123.4779, , ,224.7900, ,1.31859
1261,71.5897,102.7118, , ,224.7900, ,1.31701
1264,71.6887,95.5688, , ,224.7900, ,1.31543
1267,71.7877,89.9895, , ,224.7900, ,1.31386
1270,71.8867,81.2110, , ,224.7900, ,1.31230
1273,71.9857,83.1050, , ,224.7900, ,1.31074
1276,72.0847,71.3525, , ,224.7900, ,1.30918
1279,72.1837,57.4806, , ,224.7900, ,1.30763
1282,72.2827,67.6328, , ,224.7900, ,1.30608
1285,72.3817,65.8088, , ,224.7900, ,1.30454
1288,72.4807,57.6566, , ,224.7900, ,1.30300
1291,72.5797,57.2313, , ,224.7900, ,1.30147
1294,72.6787,50.9578, , ,224.7900, ,1.29994
1297,72.7777,53.0718, , ,224.7900, ,1.29841
1300,72.8767,50.3631, , ,224.7900, ,1.29689
1303,72.9757,52.1398, , ,224.7900, ,1.29538
1306,73.0747,45.5104, , ,224.7900, ,1.29387
1309,73.1737,53.6368, , ,224.7900, ,1.29236
1312,73.2727,46.8869, , ,224.7900, ,1.29086
1315,73.3717,52.9813, , ,224.7900, ,1.28936
1318,73.4707,55.2967, , ,224.7900, ,1.28787
1321,73.5697,39.3778, , ,224.7900, ,1.28638
1324,73.6687,61.4161, , ,224.7900, ,1.28489
1327,73.7677,49.0695, , ,224.7900, ,1.28341
1330,73.8667,61.4399, , ,224.7900, ,1.28194
1333,73.9657,58.9230, , ,224.7900, ,1.28047
1336,74.0647,63.5889, , ,224.7900, ,1.27900
1339,74.1637,43.6746, , ,224.7900, ,1.27754
1342,74.2627,65.0294, , ,224.7900, ,1.27608
1345,74.3617,71.8053, , ,224.7900, ,1.27463
1348,74.4607,58.9857, , ,224.7900, ,1.27318
1351,74.5597,50.6804, , ,224.7900, ,1.27173
1354,74.6587,64.1015, , ,224.7900, ,1.27029
1357,74.7577,60.5683, , ,224.7900, ,1.26885
1360,74.8567,44.9014, , ,224.7900, ,1.26742
1363,74.9557,56.0732, , ,224.7900, ,1.26599
1366,75.0547,70.2798, , ,224.7900, ,1.26457
1369,75.1537,52.8187, , ,224.7900, ,1.26315
1372,75.2527,65.0219, , ,224.7900, ,1.26173
1375,75.3517,67.4378, , ,224.7900, ,1.26032
1378,75.4507,61.9966, , ,224.7900, ,1.25891
1381,75.5497,78.0290, , ,224.7900, ,1.25751
1384,75.6487,84.7946, , ,224.7900, ,1.25611
1387,75.7477,87.8171, , ,224.7900, ,1.25471
1390,75.8467,101.0736, , ,224.7900, ,1.25332
1393,75.9457,132.1585, , ,224.7900, ,1.25193
1396,76.0447,138.1728, , ,224.7900, ,1.25055
1399,76.1437,167.5118, , ,224.7900, ,1.24917
1402,76.2427,185.4827, , ,224.7900, ,1.24779
1405,76.3417,215.2865, , ,224.7900, ,1.24642
1408,76.4407,224.9553, , ,224.7900, ,1.24505
1411,76.5397,216.7675, , ,224.7900, ,1.24369
1414,76.6387,180.6280, , ,224.7900, ,1.24233
1417,76.7377,199.6819, , ,224.7900, ,1.24097
1420,76.8367,116.4464, , ,224.7900, ,1.23962
1423,76.9357,110.9032, , ,224.7900, ,1.23827
1426,77.0347,93.0255, , ,224.7900, ,1.23693
1429,77.1337,85.2612, , ,224.7900, ,1.23559
1432,77.2327,96.7200, , ,224.7900, ,1.23425
1435,77.3317,106.5020, , ,224.7900, ,1.23292
1438,77.4307,89.4920, , ,224.7900, ,1.23159
1441,77.5297,100.3799, , ,224.7900, ,1.23026
1444,77.6287,94.9367, , ,224.7900, ,1.22894
1447,77.7277,95.3857, , ,224.7900, ,1.22762
1450,77.8267,106.2250, , ,224.7900, ,1.22631
1453,77.9257,94.6463, , ,224.7900, ,1.22500
1456,78.0247,87.2803, , ,224.7900, ,1.22369
1459,78.1237,66.2939, , ,224.7900, ,1.22239
1462,78.2227,63.6446, , ,224.7900, ,1.22109
1465,78.3217,48.1294, , ,224.7900, ,1.21979
1468,78.4207,48.2772, , ,224.7900, ,1.21850
1471,78.5197,50.5709, , ,224.7900, ,1.21721
1474,78.6187,48.7064, , ,224.7900, ,1.21593
1477,78.7177,47.3778, , ,224.7900, ,1.21465
1480,78.8167,40.8711, , ,224.7900, ,1.21337
1483,78.9157,42.6386, , ,224.7900, ,1.21209
1486,79.0147,40.9977, , ,224.7900, ,1.21082
1489,79.1137,41.2670, , ,224.7900, ,1.20956
1492,79.2127,41.6453, , ,224.7900, ,1.20829
1495,79.3117,39.7846, , ,224.7900, ,1.20703
1498,79.4107,40.9232, , ,224.7900, ,1.20578
1501,79.5097,35.1527, , ,224.7900, ,1.20453
1504,79.6087,58.9665, , ,224.7900, ,1.20328
1507,79.7077,34.3899, , ,224.7900, ,1.20203
1510,79.8067,36.3883, , ,224.7900, ,1.20079
1513,79.9057,54.2337, , ,224.7900, ,1.19955
1516,80.0047,44.5385, , ,224.7900, ,1.19831
1519,80.1037,43.9629, , ,224.7900, ,1.19708
1522,80.2027,48.7683, , ,224.7900, ,1.19585
1525,80.3017,38.1974, , ,224.7900, ,1.19463
1528,80.4007,49.2550, , ,224.7900, ,1.19341
1531,80.4997,53.6103, , ,224.7900, ,1.19219
1534,80.5987,35.5207, , ,224.7900, ,1.19097
1537,80.6977,63.5334, , ,224.7900, ,1.18976
1540,80.7967,42.9976, , ,224.7900, ,1.18855
1543,80.8957,44.9975, , ,224.7900, ,1.18735
1546,80.9947,42.3359, , ,224.7900, ,1.18615
1549,81.0937,42.5679, , ,224.7900, ,1.18495
1552,81.1927,46.2652, , ,224.7900, ,1.18375
1555,81.2917,36.1824, , ,224.7900, ,1.18256
1558,81.3907,32.2099, , ,224.7900, ,1.18137
1561,81.4897,45.2166, , ,224.7900, ,1.18019
1564,81.5887,43.9290, , ,224.7900, ,1.17901
1567,81.6877,49.1674, , ,224.7900, ,1.17783
1570,81.7867,42.6403, , ,224.7900, ,1.17665
1573,81.8857,51.8826, , ,224.7900, ,1.17548
1576,81.9847,42.7041, , ,224.7900, ,1.17431
1579,82.0837,49.7955, , ,224.7900, ,1.17315
1582,82.1827,53.2360, , ,224.7900, ,1.17198
1585,82.2817,75.5893, , ,224.7900, ,1.17082
1588,82.3807,56.3009, , ,224.7900, ,1.16967
1591,82.4797,48.9973, , ,224.7900, ,1.16851
1594,82.5787,69.8360, , ,224.7900, ,1.16736
1597,82.6777,52.8200, , ,224.7900, ,1.16622
1600,82.7767,42.9976, , ,224.7900, ,1.16507
1603,82.8757,58.4681, , ,224.7900, ,1.16393
1606,82.9747,43.3793, , ,224.7900, ,1.16279
1609,83.0737,45.7232, , ,224.7900, ,1.16166
1612,83.1727,44.6309, , ,224.7900, ,1.16053
1615,83.2717,42.0306, , ,224.7900, ,1.15940
1618,83.3707,41.0961, , ,224.7900, ,1.15828
1621,83.4697,38.3222, , ,224.7900, ,1.15715
1624,83.5687,40.3693, , ,224.7900, ,1.15603
1627,83.6677,45.9975, , ,224.7900, ,1.15492
1630,83.7667,47.5348, , ,224.7900, ,1.15380
1633,83.8657,57.3647, , ,224.7900, ,1.15269
1636,83.9647,51.9987, , ,224.7900, ,1.15159
1639,84.0637,45.9975, , ,224.7900, ,1.15048
1642,84.1627,41.0137, , ,224.7900, ,1.14938
1645,84.2617,41.1332, , ,224.7900, ,1.14828
1648,84.3607,39.5714, , ,224.7900, ,1.14719
1651,84.4597,44.1377, , ,224.7900, ,1.14610
1654,84.5587,42.8953, , ,224.7900, ,1.14501
1657,84.6577,47.6861, , ,224.7900, ,1.14392
1660,84.7567,49.6811, , ,224.7900, ,1.14284
1663,84.8557,33.9525, , ,224.7900, ,1.14176
1666,84.9547,50.2168, , ,224.7900, ,1.14068
1669,85.0537,43.5218, , ,224.7900, ,1.13960
1672,85.1527,39.3735, , ,224.7900, ,1.13853
1675,85.2517,44.1821, , ,224.7900, ,1.13746
1678,85.3507,30.6145, , ,224.7900, ,1.13640
1681,85.4497,31.3889, , ,224.7900, ,1.13533
1684,85.5487,50.2742, , ,224.7900, ,1.13427
1687,85.6477,30.1547, , ,224.7900, ,1.13321
1690,85.7467,29.8801, , ,224.7900, ,1.13216
1693,85.8457,44.9975, , ,224.7900, ,1.13111
1696,85.9447,35.8553, , ,224.7900, ,1.13006
1699,86.0437,42.5408, , ,224.7900, ,1.12901
1702,86.1427,39.4658, , ,224.7900, ,1.12797
1705,86.2417,39.8280, , ,224.7900, ,1.12693
1708,86.3407,38.7751, , ,224.7900, ,1.12589
1711,86.4397,44.0989, , ,224.7900, ,1.12485
1714,86.5387,39.4663, , ,224.7900, ,1.12382
1717,86.6377,37.8918, , ,224.7900, ,1.12279
1720,86.7367,50.0613, , ,224.7900, ,1.12176
1723,86.8357,41.9977, , ,224.7900, ,1.12074
1726,86.9347,42.3817, , ,224.7900, ,1.11972
1729,87.0337,56.0012, , ,224.7900, ,1.11870
1732,87.1327,63.0807, , ,224.7900, ,1.11768
1735,87.2317,59.5889, , ,224.7900, ,1.11667
1738,87.3307,47.7553, , ,224.7900, ,1.11566
1741,87.4297,57.9670, , ,224.7900, ,1.11465
1744,87.5287,45.0330, , ,224.7900, ,1.11364
1747,87.6277,38.7044, , ,224.7900, ,1.11264
1750,87.7267,27.7878, , ,224.7900, ,1.11164
1753,87.8257,40.6991, , ,224.7900, ,1.11064
1756,87.9247,34.5006, , ,224.7900, ,1.10964
1759,88.0237,34.5480, , ,224.7900, ,1.10865
1762,88.1227,30.0576, , ,224.7900, ,1.10766
1765,88.2217,33.6002, , ,224.7900, ,1.10667
1768,88.3207,34.0314, , ,224.7900, ,1.10569
1771,88.4197,29.0202, , ,224.7900, ,1.10471
1774,88.5187,27.8282, , ,224.7900, ,1.10373
1777,88.6177,32.9982, , ,224.7900, ,1.10275
1780,88.7167,35.5075, , ,224.7900, ,1.10177
1783,88.8157,25.9474, , ,224.7900, ,1.10080
1786,88.9147,36.1653, , ,224.7900, ,1.09983
1789,89.0137,34.3717, , ,224.7900, ,1.09887
1792,89.1127,31.9982, , ,224.7900, ,1.09790
1795,89.2117,39.9663, , ,224.7900, ,1.09694
1798,89.3107,30.5343, , ,224.7900, ,1.09598
1801,89.4097,37.9492, , ,224.7900, ,1.09502
1804,89.5087,25.8584, , ,224.7900, ,1.09407
1807,89.6077,33.1661, , ,224.7900, ,1.09312
1810,89.7067,24.5190, , ,224.7900, ,1.09217
1813,89.8057,28.6296, , ,224.7900, ,1.09122
1816,89.9047,39.4635, , ,224.7900, ,1.09027
1819,90.0037,47.8186, , ,224.7900, ,1.08933
1822,90.1027,34.9336, , ,224.7900, ,1.08839
1825,90.2017,34.2443, , ,224.7900, ,1.08745
1828,90.3007,34.3880, , ,224.7900, ,1.08652
1831,90.3997,35.1861, , ,224.7900, ,1.08559
1834,90.4987,31.0457, , ,224.7900, ,1.08466
1837,90.5977,29.8435, , ,224.7900, ,1.08373
1840,90.6967,27.2510, , ,224.7900, ,1.08280
1843,90.7957,41.5535, , ,224.7900, ,1.08188
1846,90.8947,38.0315, , ,224.7900, ,1.08096
1849,90.9937,41.6420, , ,224.7900, ,1.08004
1852,91.0927,31.3949, , ,224.7900, ,1.07913
1855,91.1917,38.4882, , ,224.7900, ,1.07821
1858,91.2907,31.1040, , ,224.7900, ,1.07730
1861,91.3897,31.2489, , ,224.7900, ,1.07639
1864,91.4887,33.9710, , ,224.7900, ,1.07549
1867,91.5877,40.6835, , ,224.7900, ,1.07458
1870,91.6867,32.0568, , ,224.7900, ,1.07368
1873,91.7857,42.3304, , ,224.7900, ,1.07278
1876,91.8847,41.2089, , ,224.7900, ,1.07188
1879,91.9837,42.9761, , ,224.7900, ,1.07099
1882,92.0827,46.5361, , ,224.7900, ,1.07010
1885,92.1817,48.4515, , ,224.7900, ,1.06921
1888,92.2807,50.7124, , ,224.7900, ,1.06832
1891,92.3797,41.2097, , ,224.7900, ,1.06743
1894,92.4787,45.6787, , ,224.7900, ,1.06655
1897,92.5777,53.8760, , ,224.7900, ,1.06567
1900,92.6767,59.0818, , ,224.7900, ,1.06479
1903,92.7757,65.5860, , ,224.7900, ,1.06391
1906,92.8747,56.9953, , ,224.7900, ,1.06304
1909,92.9737,51.7381, , ,224.7900, ,1.06216
1912,93.0727,50.2871, , ,224.7900, ,1.06129
1915,93.1717,41.2221, , ,224.7900, ,1.06043
1918,93.2707,55.4803, , ,224.7900, ,1.05956
1921,93.3697,42.6314, , ,224.7900, ,1.05870
1924,93.4687,47.0641, , ,224.7900, ,1.05784
1927,93.5677,47.6015, , ,224.7900, ,1.05698
1930,93.6667,51.3308, , ,224.7900, ,1.05612
1933,93.7657,37.1989, , ,224.7900, ,1.05527
1936,93.8647,44.6091, , ,224.7900, ,1.05441
1939,93.9637,42.9963, , ,224.7900, ,1.05356
1942,94.0627,50.0087, , ,224.7900, ,1.05271
1945,94.1617,48.0338, , ,224.7900, ,1.05187
1948,94.2607,42.6121, , ,224.7900, ,1.05102
1951,94.3597,38.9641, , ,224.7900, ,1.05018
1954,94.4587,41.7595, , ,224.7900, ,1.04934
1957,94.5577,42.9109, , ,224.7900, ,1.04850
1960,94.6567,39.4906, , ,224.7900, ,1.04767
1963,94.7557,37.4188, , ,224.7900, ,1.04684
1966,94.8547,50.3129, , ,224.7900, ,1.04600
1969,94.9537,41.1177, , ,224.7900, ,1.04518
1972,95.0527,44.9109, , ,224.7900, ,1.04435
1975,95.1517,48.7332, , ,224.7900, ,1.04352
1978,95.2507,34.0166, , ,224.7900, ,1.04270
1981,95.3497,48.5948, , ,224.7900, ,1.04188
1984,95.4487,54.5789, , ,224.7900, ,1.04106
1987,95.5477,51.0727, , ,224.7900, ,1.04024
1990,95.6467,31.3071, , ,224.7900, ,1.03943
1993,95.7457,47.9075, , ,224.7900, ,1.03862
1996,95.8447,41.4253, , ,224.7900, ,1.03781
1999,95.9437,41.5162, , ,224.7900, ,1.03700
2002,96.0427,58.3074, , ,224.7900, ,1.03619
2005,96.1417,60.9966, , ,224.7900, ,1.03539
2008,96.2407,62.6389, , ,224.7900, ,1.03459
2011,96.3397,54.8329, , ,224.7900, ,1.03378
2014,96.4387,53.6007, , ,224.7900, ,1.03299
2017,96.5377,42.4322, , ,224.7900, ,1.03219
2020,96.6367,63.7488, , ,224.7900, ,1.03140
2023,96.7357,60.2451, , ,224.7900, ,1.03060
2026,96.8347,62.8097, , ,224.7900, ,1.02981
2029,96.9337,56.1654, , ,224.7900, ,1.02902
2032,97.0327,50.9385, , ,224.7900, ,1.02824
2035,97.1317,45.1503, , ,224.7900, ,1.02745
2038,97.2307,54.0067, , ,224.7900, ,1.02667
2041,97.3297,57.1094, , ,224.7900, ,1.02589
2044,97.4287,64.0750, , ,224.7900, ,1.02511
2047,97.5277,45.7494, , ,224.7900, ,1.02433
2050,97.6267,47.9974, , ,224.7900, ,1.02356
2053,97.7257,41.6495, , ,224.7900, ,1.02279
2056,97.8247,45.2394, , ,224.7900, ,1.02202
2059,97.9237,38.1761, , ,224.7900, ,1.02125
2062,98.0227,39.2230, , ,224.7900, ,1.02048
2065,98.1217,43.5073, , ,224.7900, ,1.01972
2068,98.2207,48.9973, , ,224.7900, ,1.01895
2071,98.3197,39.9978, , ,224.7900, ,1.01819
2074,98.4187,34.2793, , ,224.7900, ,1.01743
2077,98.5177,37.4240, , ,224.7900, ,1.01667
2080,98.6167,44.3141, , ,224.7900, ,1.01592
2083,98.7157,36.2465, , ,224.7900, ,1.01516
2086,98.8147,37.7933, , ,224.7900, ,1.01441
2089,98.9137,35.7499, , ,224.7900, ,1.01366
2092,99.0127,34.7834, , ,224.7900, ,1.01291
2095,99.1117,42.3080, , ,224.7900, ,1.01217
2098,99.2107,40.9853, , ,224.7900, ,1.01142
2101,99.3097,43.4862, , ,224.7900, ,1.01068
2104,99.4087,40.7579, , ,224.7900, ,1.00994
2107,99.5077,35.4997, , ,224.7900, ,1.00920
2110,99.6067,31.9683, , ,224.7900, ,1.00846
2113,99.7057,36.8057, , ,224.7900, ,1.00773
2116,99.8047,39.8752, , ,224.7900, ,1.00700
2119,99.9037,29.7815, , ,224.7900, ,1.00626
2122,100.0027,34.0281, , ,224.7900, ,1.00553
2125,100.1017,33.9638, , ,224.7900, ,1.00481
2128,100.2007,33.5366, , ,224.7900, ,1.00408
2131,100.2997,35.7902, , ,224.7900, ,1.00336
2134,100.3987,36.8962, , ,224.7900, ,1.00263
2137,100.4977,38.0132, , ,224.7900, ,1.00191
2140,100.5967,30.3824, , ,224.7900, ,1.00119
2143,100.6957,37.3171, , ,224.7900, ,1.00048
2146,100.7947,34.1158, , ,224.7900, ,0.99976
2149,100.8937,35.9163, , ,224.7900, ,0.99905
2152,100.9927,35.1597, , ,224.7900, ,0.99833
2155,101.0917,45.0808, , ,224.7900, ,0.99762
2158,101.1907,39.1898, , ,224.7900, ,0.99692
2161,101.2897,47.1640, , ,224.7900, ,0.99621
2164,101.3887,48.9255, , ,224.7900, ,0.99550
2167,101.4877,52.1655, , ,224.7900, ,0.99480
2170,101.5867,38.5768, , ,224.7900, ,0.99410
2173,101.6857,53.3241, , ,224.7900, ,0.99340
2176,101.7847,58.0209, , ,224.7900, ,0.99270
2179,101.8837,60.1133, , ,224.7900, ,0.99201
2182,101.9827,61.4573, , ,224.7900, ,0.99131
2185,102.0817,81.3794, , ,224.7900, ,0.99062
2188,102.1807,75.4011, , ,224.7900, ,0.98993
2191,102.2797,77.5630, , ,224.7900, ,0.98924
2194,102.3787,91.7711, , ,224.7900, ,0.98855
2197,102.4777,93.4698, , ,224.7900, ,0.98786
2200,102.5767,88.7955, , ,224.7900, ,0.98718
2203,102.6757,108.4906, , ,224.7900, ,0.98650
2206,102.7747,90.5004, , ,224.7900, ,0.98582
2209,102.8737,107.8787, , ,224.7900, ,0.98514
2212,102.9727,99.4673, , ,224.7900, ,0.98446
2215,103.0717,87.8844, , ,224.7900, ,0.98378
2218,103.1707,71.1636, , ,224.7900, ,0.98311
2221,103.2697,58.9177, , ,224.7900, ,0.98244
2224,103.3687,66.4537, , ,224.7900, ,0.98176
2227,103.4677,46.4149, , ,224.7900, ,0.98109
2230,103.5667,43.3325, , ,224.7900, ,0.98043
2233,103.6657,52.0090, , ,224.7900, ,0.97976
2236,103.7647,55.6077, , ,224.7900, ,0.97910
2239,103.8637,33.4113, , ,224.7900, ,0.97843
2242,103.9627,42.3351, , ,224.7900, ,0.97777
2245,104.0617,44.2066, , ,224.7900, ,0.97711
2248,104.1607,51.5899, , ,224.7900, ,0.97645
2251,104.2597,39.8881, , ,224.7900, ,0.97580
2254,104.3587,39.5488, , ,224.7900, ,0.97514
2257,104.4577,41.5701, , ,224.7900, ,0.97449
2260,104.5567,38.8188, , ,224.7900, ,0.97384
2263,104.6557,45.9816, , ,224.7900, ,0.97319
2266,104.7547,39.9288, , ,224.7900, ,0.97254
2269,104.8537,42.6704, , ,224.7900, ,0.97189
2272,104.9527,52.3929, , ,224.7900, ,0.97125
2275,105.0517,49.7458, , ,224.7900, ,0.97060
2278,105.1507,51.0767, , ,224.7900, ,0.96996
2281,105.2497,53.1566, , ,224.7900, ,0.96932
2284,105.3487,49.0700, , ,224.7900, ,0.96868
2287,105.4477,51.9971, , ,224.7900, ,0.96805
2290,105.5467,44.4785, , ,224.7900, ,0.96741
2293,105.6457,57.8299, , ,224.7900, ,0.96678
2296,105.7447,43.9793, , ,224.7900, ,0.96614
2299,105.8437,58.2686, , ,224.7900, ,0.96551
2302,105.9427,52.2781, , ,224.7900, ,0.96488
2305,106.0417,62.8249, , ,224.7900, ,0.96425
2308,106.1407,46.6817, , ,224.7900, ,0.96363
2311,106.2397,62.5336, , ,224.7900, ,0.96300
2314,106.3387,69.4738, , ,224.7900, ,0.96238
2317,106.4377,65.2021, , ,224.7900, ,0.96176
2320,106.5367,66.6788, , ,224.7900, ,0.96114
2323,106.6357,62.3764, , ,224.7900, ,0.96052
2326,106.7347,65.1649, , ,224.7900, ,0.95990
2329,106.8337,59.4603, , ,224.7900, ,0.95929
2332,106.9327,64.7735, , ,224.7900, ,0.95867
2335,107.0317,58.5180, , ,224.7900, ,0.95806
2338,107.1307,51.3623, , ,224.7900, ,0.95745
2341,107.2297,50.3404, , ,224.7900, ,0.95684
2344,107.3287,47.6901, , ,224.7900, ,0.95623
2347,107.4277,54.4092, , ,224.7900, ,0.95562
2350,107.5267,49.0085, , ,224.7900, ,0.95502
2353,107.6257,47.4458, , ,224.7900, ,0.95441
2356,107.7247,46.0440, , ,224.7900, ,0.95381
2359,107.8237,59.9119, , ,224.7900, ,0.95321
2362,107.9227,47.2500, , ,224.7900, ,0.95261
2365,108.0217,47.4295, , ,224.7900, ,0.95201
2368,108.1207,41.3604, , ,224.7900, ,0.95141
2371,108.2197,53.9970, , ,224.7900, ,0.95082
2374,108.3187,63.9960, , ,224.7900, ,0.95023
2377,108.4177,57.5670, , ,224.7900, ,0.94963
2380,108.5167,57.8361, , ,224.7900, ,0.94904
2383,108.6157,57.2505, , ,224.7900, ,0.94845
2386,108.7147,71.9332, , ,224.7900, ,0.94787
2389,108.8137,77.1855, , ,224.7900, ,0.94728
2392,108.9127,84.8263, , ,224.7900, ,0.94669
2395,109.0117,97.4308, , ,224.7900, ,0.94611
2398,109.1107,95.7806, , ,224.7900, ,0.94553
2401,109.2097,104.3598, , ,224.7900, ,0.94495
2404,109.3087,127.6494, , ,224.7900, ,0.94437
2407,109.4077,120.6463, , ,224.7900, ,0.94379
2410,109.5067,138.1641, , ,224.7900, ,0.94321
2413,109.6057,147.4916, , ,224.7900, ,0.94264
2416,109.7047,130.9605, , ,224.7900, ,0.94206
2419,109.8037,124.5955, , ,224.7900, ,0.94149
2422,109.9027,138.0270, , ,224.7900, ,0.94092
2425,110.0017,113.5991, , ,224.7900, ,0.94035
2428,110.1007,124.1644, , ,224.7900, ,0.93978
2431,110.1997,117.7327, , ,224.7900, ,0.93922
2434,110.2987,111.5713, , ,224.7900, ,0.93865
2437,110.3977,116.5540, , ,224.7900, ,0.93809
2440,110.4967,105.8287, , ,224.7900, ,0.93752
2443,110.5957,87.3573, , ,224.7900, ,0.93696
2446,110.6947,85.1044, , ,224.7900, ,0.93640
2449,110.7937,62.0288, , ,224.7900, ,0.93585
2452,110.8927,66.9551, , ,224.7900, ,0.93529
2455,110.9917,77.4560, , ,224.7900, ,0.93473
2458,111.0907,58.1210, , ,224.7900, ,0.93418
2461,111.1897,50.7970, , ,224.7900, ,0.93362
2464,111.2887,56.3901, , ,224.7900, ,0.93307
2467,111.3877,52.4046, , ,224.7900, ,0.93252
2470,111.4867,41.5701, , ,224.7900, ,0.93197
2473,111.5857,43.5142, , ,224.7900, ,0.93143
2476,111.6847,51.8781, , ,224.7900, ,0.93088
2479,111.7837,57.2217, , ,224.7900, ,0.93033
2482,111.8827,47.4593, , ,224.7900, ,0.92979
2485,111.9817,55.9969, , ,224.7900, ,0.92925
2488,112.0807,44.3038, , ,224.7900, ,0.92871
2491,112.1797,50.1456, , ,224.7900, ,0.92817
2494,112.2787,57.0656, , ,224.7900, ,0.92763
2497,112.3777,43.1251, , ,224.7900, ,0.92709
2500,112.4767,47.6396, , ,224.7900, ,0.92656
2503,112.5757,47.4144, , ,224.7900, ,0.92602
2506,112.6747,50.2953, , ,224.7900, ,0.92549
2509,112.7737,54.2345, , ,224.7900, ,0.92496
2512,112.8727,50.7007, , ,224.7900, ,0.92443
2515,112.9717,56.6066, , ,224.7900, ,0.92390
2518,113.0707,56.3296, , ,224.7900, ,0.92337
2521,113.1697,54.8344, , ,224.7900, ,0.92284
2524,113.2687,67.2033, , ,224.7900, ,0.92232
2527,113.3677,67.0778, , ,224.7900, ,0.92179
2530,113.4667,84.0423, , ,224.7900, ,0.92127
2533,113.5657,95.8411, , ,224.7900, ,0.92075
2536,113.6647,86.2358, , ,224.7900, ,0.92023
2539,113.7637,92.4128, , ,224.7900, ,0.91971
2542,113.8627,111.1254, , ,224.7900, ,0.91919
2545,113.9617,116.8885, , ,224.7900, ,0.91868
2548,114.0607,143.8254, , ,224.7900, ,0.91816
2551,114.1597,130.2878, , ,224.7900, ,0.91765
2554,114.2587,139.8529, , ,224.7900, ,0.91713
2557,114.3577,142.4600, , ,224.7900, ,0.91662
2560,114.4567,124.5379, , ,224.7900, ,0.91611
2563,114.5557,129.3304, , ,224.7900, ,0.91560
2566,114.6547,136.8474, , ,224.7900, ,0.91510
2569,114.7537,126.3399, , ,224.7900, ,0.91459
2572,114.8527,117.5434, , ,224.7900, ,0.91408
2575,114.9517,105.7831, , ,224.7900, ,0.91358
2578,115.0507,88.8368, , ,224.7900, ,0.91308
2581,115.1497,62.1151, , ,224.7900, ,0.91258
2584,115.2487,62.8577, , ,224.7900, ,0.91208
2587,115.3477,61.4700, , ,224.7900, ,0.91158
2590,115.4467,57.3818, , ,224.7900, ,0.91108
2593,115.5457,65.5426, , ,224.7900, ,0.91058
2596,115.6447,57.7462, , ,224.7900, ,0.91009
2599,115.7437,64.2877, , ,224.7900, ,0.90959
2602,115.8427,50.6448, , ,224.7900, ,0.90910
2605,115.9417,51.8384, , ,224.7900, ,0.90861
2608,116.0407,54.2912, , ,224.7900, ,0.90812
2611,116.1397,41.0123, , ,224.7900, ,0.90763
2614,116.2387,57.7908, , ,224.7900, ,0.90714
2617,116.3377,49.4305, , ,224.7900, ,0.90665
2620,116.4367,47.2364, , ,224.7900, ,0.90617
2623,116.5357,45.3410, , ,224.7900, ,0.90568
2626,116.6347,49.8348, , ,224.7900, ,0.90520
2629,116.7337,40.5500, , ,224.7900, ,0.90472
2632,116.8327,58.0438, , ,224.7900, ,0.90424
2635,116.9317,53.1965, , ,224.7900, ,0.90376
2638,117.0307,49.0104, , ,224.7900, ,0.90328
2641,117.1297,36.2422, , ,224.7900, ,0.90280
2644,117.2287,40.8713, , ,224.7900, ,0.90233
2647,117.3277,48.7396, , ,224.7900, ,0.90185
2650,117.4267,47.6139, , ,224.7900, ,0.90138
2653,117.5257,48.6155, , ,224.7900, ,0.90090
2656,117.6247,40.1808, , ,224.7900, ,0.90043
2659,117.7237,43.1394, , ,224.7900, ,0.89996
2662,117.8227,45.3564, , ,224.7900, ,0.89949
2665,117.9217,43.2913, , ,224.7900, ,0.89903
2668,118.0207,43.2417, , ,224.7900, ,0.89856
2671,118.1197,49.4677, , ,224.7900, ,0.89809
2674,118.2187,50.0963, , ,224.7900, ,0.89763
2677,118.3177,57.1792, , ,224.7900, ,0.89717
2680,118.4167,47.0474, , ,224.7900, ,0.89670
2683,118.5157,44.0910, , ,224.7900, ,0.89624
2686,118.6147,40.4974, , ,224.7900, ,0.89578
2689,118.7137,58.7278, , ,224.7900, ,0.89532
2692,118.8127,59.6511, , ,224.7900, ,0.89487
2695,118.9117,43.9422, , ,224.7900, ,0.89441
2698,119.0107,53.2489, , ,224.7900, ,0.89395
2701,119.1097,59.3992, , ,224.7900, ,0.89350
2704,119.2087,44.8898, , ,224.7900, ,0.89305
2707,119.3077,52.3702, , ,224.7900, ,0.89259
2710,119.4067,55.2369, , ,224.7900, ,0.89214
2713,119.5057,57.2817, , ,224.7900, ,0.89169
2716,119.6047,61.0255, , ,224.7900, ,0.89124
2719,119.7037,61.3082, , ,224.7900, ,0.89080
2722,119.8027,60.3947, , ,224.7900, ,0.89035
2725,119.9017,55.9348, , ,224.7900, ,0.88991
2727,119.9677,55.3116, , ,224.7900, ,0.88961